Folder: CCP_24_BETTER-RE

File: 1231_5th.csv
Cycle,Battery ID,Min Voltage (V),Max Voltage (V),Internal Resistance (Ohms),Charge Capacity (Ah),Discharge Capacity (Ah),Charge Energy (Wh),Discharge Energy (Wh),SOH (%),Charge-Discharge Efficiency (%),Energy Efficiency (%)
1,B0047,3.48619,4.21459,3.53349,1.54161,1.52437,6.41883,5.38101,76.2183,98.8814,83.8317
21,B0047,3.54077,4.21461,3.67442,1.32415,1.28492,5.53868,4.51488,64.2458,97.0369,81.5154
39,B0047,3.71072,4.21463,3.63265,1.22463,1.19026,5.14453,4.15006,59.5128,97.1932,80.6694
59,B0047,3.4998,4.21458,3.55406,1.19776,1.15162,5.0155,4.02415,57.5808,96.1476,80.2343
7,B0045,3.7108,4.21763,5.36951,0.949888,0.818368,3.99143,3.0536,40.9184,86.1542,76.5041
27,B0045,3.71701,4.22164,5.56528,0.818155,0.707103,3.43872,2.62414,35.3551,86.4265,76.3114
45,B0045,3.71521,4.22563,5.41544,0.786314,0.667936,3.30536,2.47467,33.3968,84.9451,74.8685
63,B0045,3.7206,4.22808,5.35397,0.759741,0.627812,3.19409,2.41202,31.3906,82.635,75.515
11,B0048,3.50546,4.20108,3.64407,1.40193,1.39027,5.84269,4.78505,69.5135,99.168,81.8981
31,B0048,3.58078,4.20037,3.65644,1.24652,1.23398,5.20752,4.20302,61.6992,98.9947,80.7105
49,B0048,3.71582,4.20187,3.50526,1.18089,1.19156,4.94296,4.02764,59.578,100.904,81.4825
71,B0048,3.3814,4.20029,3.45318,1.2347,1.22313,5.14666,4.16738,61.1564,99.0623,80.9725
17,B0046,3.13017,4.20281,3.38174,1.45328,1.37233,6.03945,4.90835,68.6167,94.4304,81.2715
37,B0046,3.20383,4.20215,3.34436,1.34205,1.24779,5.59072,4.46917,62.3894,92.9763,79.9392
57,B0046,3.23454,4.20243,3.32962,1.27117,1.18229,5.30195,4.20955,59.1145,93.0078,79.3962
5,B0032,3.42281,4.20018,0.850355,1.8585,1.84417,7.51852,6.17035,92.2087,99.2292,82.0687
23,B0032,3.31727,4.2,0.861711,1.74328,1.73372,7.05964,5.80825,86.686,99.4516,82.2741
1,B0029,2.91169,4.20961,0.861815,1.91296,1.8447,7.66319,6.41008,92.2351,96.4318,83.6476
19,B0029,3.13384,4.20965,0.866597,1.783,1.73122,7.17089,6.00904,86.5611,97.0961,83.7977
37,B0029,3.25242,4.20972,0.879712,1.6815,1.62751,6.78744,5.65201,81.3756,96.7896,83.2716
15,B0028,2.68152,4.20029,3.69063,1.77034,1.76968,7.17385,6.32273,88.4841,99.963,88.1359
6,B0034,3.1874,4.20195,1.79525,1.6632,1.48667,6.87022,5.05479,74.3335,89.3862,73.5754
24,B0034,3.21588,4.20272,1.87691,1.63321,1.48552,6.73403,4.95603,74.2759,90.9568,73.5967
42,B0034,3.21678,4.20282,1.83011,1.51944,1.53632,6.28569,4.99275,76.8159,101.111,79.4305
62,B0034,3.21877,4.20363,1.9208,1.53231,1.45545,6.328,4.74671,72.7724,94.984,75.0112
80,B0034,3.21785,4.20195,1.9852,1.47641,1.33721,6.11139,4.47538,66.8607,90.5722,73.2303
98,B0034,3.2166,4.20305,1.97096,1.48435,1.33376,6.1438,4.42117,66.6882,89.8551,71.9615
118,B0034,3.21663,4.20397,1.96772,1.44333,1.32534,5.97867,4.37001,66.2669,91.8252,73.0934
136,B0034,3.21497,4.20436,1.9539,1.48442,1.3548,6.14082,4.43008,67.7402,91.2682,72.1414
154,B0034,3.21739,4.2032,1.9489,1.41481,1.28323,5.86741,4.23623,64.1615,90.6995,72.1994
172,B0034,3.21012,4.20314,1.92371,1.42803,1.31902,5.92176,4.35205,65.951,92.3664,73.4925
190,B0034,3.21084,4.20282,1.87936,1.41963,1.28685,5.89169,4.24271,64.3424,90.6466,72.0117
11,B0033,3.15375,4.20971,1.6723,1.75819,1.62557,7.26887,5.35943,81.2785,92.4568,73.7312
29,B0033,3.21437,4.20964,1.73444,1.72469,1.62609,7.10257,5.3282,81.3044,94.283,75.0178
49,B0033,3.21049,4.20995,1.73746,1.6956,1.608,6.98525,5.29471,80.4001,94.8338,75.7985
67,B0033,3.15627,4.20986,1.72172,1.71908,1.6249,7.0871,5.28843,81.245,94.5216,74.6205
85,B0033,3.18602,4.20989,1.82179,1.5789,1.45271,6.54375,4.75074,72.6355,92.0075,72.5997
103,B0033,3.18047,4.20983,1.83698,1.55441,1.42304,6.44545,4.65024,71.1519,91.5483,72.1476
123,B0033,3.17472,4.20974,1.88,1.48183,1.35522,6.15845,4.43586,67.7611,91.4562,72.0288
141,B0033,3.30775,4.33093,14.6819,0.272392,0.202563,1.1516,0.654049,10.1282,74.3646,56.7948
159,B0033,3.14987,4.21011,1.80834,1.56033,1.45983,6.47361,4.6773,72.9915,93.559,72.2518
177,B0033,3.16439,4.20995,1.86559,1.49532,1.36314,6.21349,4.42173,68.1569,91.1603,71.1634
195,B0033,3.18884,4.21025,1.85585,1.44106,1.31242,5.98755,4.26621,65.621,91.0734,71.2513
16,B0030,3.12816,4.20203,0.889265,1.77926,1.70921,7.14529,5.90729,85.4604,96.063,82.6738
34,B0030,3.313,4.20274,0.911029,1.64004,1.58461,6.62245,5.45122,79.2307,96.6201,82.3142
12,B0027,3.03655,4.21465,3.20206,1.85157,1.81916,7.60968,5.88021,90.9581,98.2498,77.2727
3,B0036,2.9319,4.20025,1.7466,1.80829,1.80439,7.3981,6.25132,90.2194,99.784,84.4989
21,B0036,3.17381,4.20016,1.75046,1.74992,1.78269,7.17933,6.18782,89.1346,101.873,86.1895
39,B0036,2.97071,4.20005,1.75725,1.76424,1.75362,7.20143,6.09544,87.6809,99.398,84.642
59,B0036,2.95479,4.20058,1.75342,1.74031,1.73366,7.10942,6.01248,86.6831,99.6183,84.5706
77,B0036,3.15307,4.20045,1.74975,1.72001,1.72442,7.05538,5.9649,86.221,100.257,84.5439
95,B0036,3.03917,4.20055,1.74848,1.69166,1.70078,6.92743,5.87521,85.0389,100.539,84.8109
115,B0036,3.01142,4.20056,1.75086,1.69291,1.68028,6.92542,5.80983,84.0139,99.254,83.8915
133,B0036,3.06942,4.20066,1.74714,1.65614,1.64688,6.78655,5.67802,82.3439,99.4408,83.6658
151,B0036,3.10043,4.20046,1.74429,1.62732,1.62482,6.67501,5.59024,81.241,99.8466,83.7488
169,B0036,3.02196,4.20027,1.74929,1.65288,1.63584,6.7667,5.64239,81.7922,98.9691,83.3847
187,B0036,3.30622,4.20046,1.74482,1.60159,1.59203,6.59931,5.4737,79.6014,99.4028,82.9435
8,B0025,2.94913,4.20969,3.23576,1.88267,1.84019,7.66198,6.23211,92.0094,97.7432,81.3381
26,B0025,2.98827,4.20972,3.23881,1.82745,1.78548,7.4371,6.06349,89.2741,97.7033,81.5303
17,B0031,3.15657,4.21469,0.871486,1.8135,1.76499,7.28286,6.10459,88.2495,97.3253,83.8213
35,B0031,3.49023,4.21465,0.87138,1.71143,1.69571,6.91216,5.86343,84.7853,99.0813,84.8278
15,B0049,3.74245,4.2092,1.53632,0.986633,0.795302,4.14455,2.93725,39.7651,80.6077,70.8703
13,B0050,0.533189,4.93787,17.8405,0.0105773,0.0765835,0.0429305,0.290815,3.82918,724.038,677.41
20,B0051,3.77721,4.21459,2.00903,0.822944,0.737643,3.45067,2.63494,36.8822,89.6346,76.3603
13,B0006,3.08483,4.20629,1.79308,1.95221,1.91189,7.91541,6.84071,95.5945,97.9345,86.4227
31,B0006,3.10938,4.20212,1.7872,1.91601,1.88223,7.78462,6.71729,94.1116,98.237,86.2893
49,B0006,3.17056,4.20187,1.80847,1.81593,1.77576,7.39902,6.31795,88.7881,97.788,85.3891
67,B0006,3.27367,4.20266,1.94018,1.56978,1.55117,6.46012,5.421,77.5586,98.8144,83.9149
85,B0006,3.28321,4.20161,1.98057,1.47187,1.45192,6.08535,5.01283,72.5962,98.6447,82.3754
105,B0006,3.30526,4.20261,1.97847,1.43663,1.41502,5.94374,4.89449,70.7508,98.4956,82.3469
123,B0006,3.30189,4.20212,2.00489,1.37902,1.35732,5.71837,4.66878,67.8658,98.4261,81.6453
141,B0006,3.29873,4.20184,2.08658,1.29915,1.27921,5.39864,4.35931,63.9604,98.4651,80.7483
159,B0006,3.3013,4.20175,2.19646,1.21123,1.19059,5.0394,4.05669,59.5295,98.2957,80.4994
10,B0005,3.06985,4.21323,1.90476,1.85103,1.82462,7.49516,6.52247,91.231,98.5732,87.0224
28,B0005,3.11782,4.2129,1.87242,1.84229,1.80277,7.47316,6.45156,90.1383,97.8544,86.3297
46,B0005,3.26927,4.20989,1.85383,1.74511,1.73609,7.1062,6.18617,86.8046,99.4834,87.0531
64,B0005,3.32318,4.20891,1.8917,1.67121,1.65901,6.82005,5.89686,82.9507,99.2703,86.4635
82,B0005,3.35061,4.20924,1.93405,1.56113,1.55469,6.39896,5.48639,77.7345,99.5874,85.7389
102,B0005,3.35343,4.20906,1.96423,1.47718,1.4859,6.0708,5.21762,74.2952,100.59,85.9462
120,B0005,3.3518,4.20958,1.98915,1.43975,1.43826,5.92552,5.04635,71.9128,99.8961,85.1629
138,B0005,3.34412,4.20968,2.04176,1.35785,1.3547,5.60122,4.71912,67.7352,99.7681,84.2516
156,B0005,3.33875,4.20891,2.06045,1.31669,1.3132,5.44078,4.55616,65.6601,99.7354,83.7409
7,B0007,2.99928,4.21468,1.86195,1.90357,1.88151,7.69811,6.75017,94.0754,98.8412,87.6861
25,B0007,3.04201,4.21464,1.81184,1.8942,1.85961,7.6669,6.69461,92.9806,98.1741,87.3183
43,B0007,3.23101,4.21471,1.79994,1.82949,1.80626,7.43028,6.48397,90.3132,98.7304,87.264
61,B0007,3.37651,4.21474,1.81979,1.73891,1.71398,7.08021,6.15381,85.6989,98.5665,86.9157
79,B0007,3.43875,4.21465,1.83818,1.64797,1.62121,6.73598,5.79275,81.0607,98.3763,85.9972
99,B0007,3.45076,4.21472,1.85384,1.58901,1.57026,6.50445,5.58561,78.5128,98.8195,85.8736
117,B0007,3.46361,4.21463,1.84902,1.53261,1.51361,6.28586,5.38217,75.6803,98.7601,85.6234
135,B0007,3.46229,4.21469,1.85755,1.50208,1.47712,6.16722,5.23725,73.8558,98.3377,84.9208
153,B0007,3.46425,4.21461,1.8757,1.46173,1.44179,6.00991,5.08584,72.0895,98.6356,84.6243
4,B0018,3.08131,4.20226,1.82491,1.84689,1.8327,7.51459,6.56162,91.635,99.2317,87.3185
22,B0018,3.07526,4.20183,1.87827,1.73814,1.71147,7.05865,6.09784,85.5735,98.4654,86.3882
40,B0018,3.08436,4.20266,1.91274,1.69513,1.6493,6.89017,5.86426,82.465,97.2963,85.1105
58,B0018,3.10874,4.20296,1.90727,1.63149,1.5921,6.63622,5.6691,79.6048,97.5853,85.4266
76,B0018,3.1829,4.20369,1.93313,1.50493,1.47351,6.15246,5.18389,73.6754,97.9119,84.2572
94,B0018,3.18589,4.20213,1.92773,1.43961,1.40568,5.89556,4.93555,70.284,97.6428,83.7164
112,B0018,3.18653,4.20238,1.9301,1.42497,1.39533,5.83646,4.91065,69.7666,97.9203,84.1375
130,B0018,3.32742,4.20324,1.92769,1.37938,1.3548,5.68334,4.75072,67.7398,98.2178,83.5904
17,B0053,3.54114,4.20973,1.54107,1.33729,1.02792,5.57855,4.09728,51.3962,76.8664,73.447
35,B0053,3.54055,4.20987,1.54323,1.29064,1.01504,5.38587,3.95725,50.7519,78.6459,73.4746
53,B0053,3.71908,4.20976,1.54763,1.28801,1.04718,5.40359,3.95512,52.3591,81.302,73.1944
17,B0054,3.63212,4.20174,1.61391,1.3804,1.01534,5.74208,4.16294,50.7669,73.5538,72.4989
35,B0054,3.67945,4.20189,1.62206,1.27513,0.947979,5.30908,4.02957,47.3989,74.3436,75.8996
53,B0054,3.71111,4.20251,1.62985,1.30155,0.929476,5.44237,3.98147,46.4738,71.4129,73.1569
71,B0054,3.73882,4.20194,1.60102,1.08422,0.898152,4.53126,3.88868,44.9076,82.8384,85.8189
89,B0054,3.71812,4.20215,1.66274,1.21451,0.879973,5.08154,3.83133,43.9986,72.4552,75.3969
6,B0055,3.76867,4.21457,1.85374,1.24853,1.20096,5.23655,4.15579,60.0481,96.1903,79.3612
24,B0055,3.74155,4.21466,1.98536,1.20626,1.13744,5.03594,4.04231,56.8722,94.295,80.2693
42,B0055,3.78259,4.2147,2.04524,1.14819,1.09835,4.8072,3.89882,54.9176,95.6597,81.1037
60,B0055,3.7518,4.21461,2.09991,1.10862,1.03542,4.62976,3.62615,51.771,93.3971,78.3227
78,B0055,3.73919,4.21467,2.08626,1.11695,1.01263,4.66143,3.53373,50.6313,90.6602,75.8078
96,B0055,3.76013,4.21465,1.92393,1.05628,1.00366,4.41197,3.73458,50.1828,95.018,84.6466
102,B0055,3.74257,4.21461,1.98244,1.10692,0.990759,4.62093,3.62439,49.538,89.5058,78.4341